acc_x, acc_y, angular_z, stamp, 
0.009335100650787354, 0.00762706995010376, -7.409005644209941e-10, 1727987017766038996, 
0.030670881271362305, -0.006687939167022705, -5.113724445201782e-10, 1727987017795771981, 
-0.012777626514434814, -0.0244789719581604, -5.812250091225667e-10, 1727987017825832920, 
-0.022025108337402344, 0.019012451171875, -1.905014741607209e-06, 1727987017857129411, 
0.0031221508979797363, 0.006641983985900879, -3.663917651309021e-10, 1727987017888701122, 
0.012063741683959961, 0.003056943416595459, -3.033233576587785e-10, 1727987017915588412, 
0.0028638839721679688, 0.015755414962768555, -2.437033308784839e-10, 1727987017945558244, 
-0.022434592247009277, -0.014942586421966553, -3.3514984227282353e-10, 1727987017975595043, 
-0.004400193691253662, 0.0011821985244750977, -1.979159301451542e-06, 1727987018005715882, 
-0.004125714302062988, 0.017337381839752197, -2.6954444770363547e-10, 1727987018035406310, 
0.015726804733276367, -0.00243532657623291, -2.4396201700963694e-10, 1727987018065385829, 
0.008573830127716064, -0.008131682872772217, -2.2166461537138362e-10, 1727987018097070000, 
-0.007550716400146484, -0.0010045170783996582, -2.523080661617468e-10, 1727987018127908609, 
0.005211234092712402, -0.01333475112915039, -2.7167986189488724e-10, 1727987018165240282, 
0.026690959930419922, 0.010046243667602539, -1.988573384473766e-06, 1727987018195215850, 
-0.012969613075256348, -0.024064600467681885, -1.5161018833354656e-10, 1727987018225176739, 
-0.00036466121673583984, 0.010217010974884033, -9.775198600737613e-11, 1727987018257207684, 
-0.0021497607231140137, 0.02463620901107788, -5.861886082549023e-11, 1727987018287835006, 
0.0033819079399108887, 0.0014223456382751465, -8.441352949527196e-11, 1727987018314043070, 
0.0034933090209960938, -0.03099226951599121, -5.0814556319542485e-11, 1727987018344984791, 
-0.012499511241912842, -0.012623190879821777, -3.619651431326216e-11, 1727987018374976073, 
-0.01218414306640625, -0.0037543177604675293, 4.091399049803165e-12, 1727987018403896750, 
0.006074190139770508, -0.014292776584625244, -8.014706250694204e-12, 1727987018433873198, 
0.022404909133911133, -0.005029499530792236, -3.6239509645419496e-11, 1727987018464869698, 
0.009769797325134277, 0.004313766956329346, -5.134250692157444e-11, 1727987018496826194, 
-0.00990825891494751, 0.011601924896240234, -7.251563964224669e-11, 1727987018526623458, 
-0.0006935000419616699, 0.002928495407104492, -1.63505354647037e-10, 1727987018554759128, 
-0.005930066108703613, 0.01027679443359375, -1.9614384031603984e-10, 1727987018584678299, 
-0.009495973587036133, -0.02018052339553833, -2.1556615786339979e-10, 1727987018614615352, 
-0.009444653987884521, -8.922815322875977e-05, -2.5247920549562937e-10, 1727987018644640148, 
0.008636176586151123, -0.008807063102722168, -3.1303809658254166e-10, 1727987018674589948, 
0.012125670909881592, 0.014759182929992676, -3.098782606348055e-10, 1727987018705247103, 
-0.0025100111961364746, 0.00044846534729003906, -2.512602826996586e-10, 1727987018736805123, 
-0.011767983436584473, -0.019082307815551758, -1.151420222565757e-10, 1727987018764503921, 
-0.006483912467956543, 0.020423948764801025, -2.270284917309437e-11, 1727987018794394594, 
0.006113231182098389, 0.013393700122833252, -1.7942543292887797e-11, 1727987018824362190, 
0.002529740333557129, -0.001057744026184082, -6.0457687524676e-12, 1727987018854467501, 
-0.01375359296798706, -0.004561066627502441, -1.9989642285327864e-06, 1727987018884284967, 
-0.004778087139129639, 0.015181779861450195, 3.790877185521015e-11, 1727987018914208086, 
-0.008279025554656982, 0.011544287204742432, 1.4619803014845226e-11, 1727987018944946403, 
0.009666919708251953, 0.014811694622039795, -9.173929443603662e-12, 1727987018977115011, 
0.01850992441177368, -0.005023002624511719, 2.8678438598224442e-11, 1727987019004228295, 
-0.003097712993621826, 0.0038720369338989258, 4.953617974878532e-11, 1727987019034265432, 
0.01659095287322998, 0.005334436893463135, 4.4735350654491405e-11, 1727987019064186732, 
0.03793907165527344, -0.0002340078353881836, 5.5816936048286794e-11, 1727987019093958093, 
0.024951279163360596, -0.00927126407623291, 7.676938860328582e-11, 1727987019123968503, 
-0.005881547927856445, -0.012987613677978516, 8.6763410840413e-11, 1727987019153960060, 
-0.006655335426330566, -0.009868741035461426, 5.494063152417116e-11, 1727987019185117243, 
0.012404441833496094, 0.02591615915298462, -0.0002914440563682634, 1727987019217636191, 
1.2315764427185059, 0.011493206024169922, 0.0045877642841890675, 1727987019242880944, 
1.4062563180923462, -0.14611506462097168, 0.05279992554451964, 1727987019273727864, 
1.0163522958755493, 0.2899003028869629, 0.06266588858761021, 1727987019303677623, 
0.9241559505462646, 0.3570197820663452, 0.10813636657206394, 1727987019333650533, 
0.48329299688339233, -0.3325456976890564, 0.1510608967003192, 1727987019363619392, 
0.252339243888855, 0.04573702812194824, 0.15646017108411253, 1727987019393568020, 
1.222654104232788, 0.4024472236633301, 0.1569163844037295, 1727987019424905892, 
1.0684431791305542, -0.01177525520324707, 0.1747885742301464, 1727987019456487280, 
0.39097511768341064, -0.09624546766281128, 0.23809898597934334, 1727987019483500995, 
0.1237223744392395, 0.19357836246490479, 0.25580164688694124, 1727987019513414767, 
0.744701623916626, 0.2793203592300415, 0.2841120494297457, 1727987019543402777, 
-0.048285722732543945, 0.4223606586456299, 0.29002773922186853, 1727987019573312841, 
1.0489612817764282, 0.5660391449928284, 0.3329690160307761, 1727987019603320058, 
0.8301766514778137, 0.2235339879989624, 0.3631098304719772, 1727987019633296422, 
0.5950067639350891, -0.37244224548339844, 0.3275131898226851, 1727987019665547313, 
0.6601641774177551, 0.3048299551010132, 0.3564571068594629, 1727987019695699501, 
0.6127689480781555, 0.3016067147254944, 0.39859872884582964, 1727987019722215136, 
-0.5645352005958557, -0.32758790254592896, 0.3100571931713323, 1727987019753105886, 
-0.5932549238204956, -0.041455984115600586, 0.310620122705487, 1727987019783075509, 
-0.18984365463256836, 0.6289343237876892, 0.3419997129519452, 1727987019813199920, 
-0.23610222339630127, 0.22766977548599243, 0.36971823289060274, 1727987019843190872, 
-0.5572376847267151, -0.31656742095947266, 0.3982849926033181, 1727987019873790482, 
0.5016907453536987, -0.2554905414581299, 0.44273897224309683, 1727987019904847278, 
0.291853666305542, 0.7355861663818359, 0.47153202093668195, 1727987019932982872, 
-0.07215023040771484, 0.5037022829055786, 0.40855060213186384, 1727987019962801666, 
-0.259282648563385, 0.06315207481384277, 0.3981990154349474, 1727987019992723303, 
-0.07800251245498657, 0.08278012275695801, 0.40944814760087345, 1727987020022708641, 
0.09299373626708984, 0.12056654691696167, 0.40635445703961776, 1727987020053015491, 
-0.2089782953262329, 0.4392366409301758, 0.4060598411635155, 1727987020082710608, 
0.244154691696167, 0.5706481337547302, 0.3680604054147058, 1727987020113248051, 
-0.12202143669128418, 0.577272355556488, 0.344228336934237, 1727987020144972577, 
0.40509623289108276, -0.1466638445854187, 0.42706881294244553, 1727987020172554066, 
-0.08502078056335449, -0.017354190349578857, 0.4217217381491478, 1727987020202507776, 
-0.11736750602722168, 0.606456458568573, 0.4283167987653652, 1727987020232445163, 
-0.3488149642944336, 0.1085890531539917, 0.4261665910104814, 1727987020262375429, 
0.5964890122413635, 0.043200016021728516, 0.42294580534694115, 1727987020292354444, 
0.12129998207092285, -0.01737731695175171, 0.4002855252263668, 1727987020322309090, 
-0.4417113661766052, -0.014339029788970947, 0.37048044042574185, 1727987020352985612, 
0.4117884635925293, 0.6964033246040344, 0.3656955812186976, 1727987020385554794, 
-0.4142879247665405, 0.009736239910125732, 0.4756161053026188, 1727987020412218565, 
0.648794949054718, -0.46069324016571045, 0.41891335779502226, 1727987020442205691, 
-0.07119190692901611, 0.1388276219367981, 0.4487462762509504, 1727987020471160334, 
0.6278177499771118, 0.18630582094192505, 0.41830629674232134, 1727987020502323784, 
-0.09762245416641235, 0.33846497535705566, 0.40596974302036193, 1727987020532196193, 
-0.08870947360992432, -0.11504101753234863, 0.38553854417101374, 1727987020561964507, 
-0.3996551036834717, 0.05541360378265381, 0.3875045833925957, 1727987020591950468, 
0.4485241174697876, 0.5100692510604858, 0.35490850802201585, 1727987020625281019, 
-0.348754346370697, -0.1801360845565796, 0.4252988067519967, 1727987020652476032, 
0.5328462719917297, -0.615382194519043, 0.39990320667735074, 1727987020682407384, 
-0.1713578701019287, 0.009608209133148193, 0.41949611074116483, 1727987020712453321, 
-0.35314399003982544, 0.6140336394309998, 0.3999337940079991, 1727987020742409052, 
0.22645461559295654, -0.1708083152770996, 0.3799748931796206, 1727987020771661648, 
-0.1605045199394226, -0.21363353729248047, 0.3833293673317526, 1727987020801675581, 
0.06464725732803345, -0.05156242847442627, 0.3852169908393441, 1727987020832859143, 
0.2300856113433838, 0.7649818062782288, 0.3843179301234109, 1727987020864851375, 
0.10340994596481323, 0.2578713297843933, 0.4800958019271086, 1727987020891543713, 
-0.22689801454544067, -0.24823880195617676, 0.41708623953214446, 1727987020921491020, 
-0.2544679045677185, 0.8956063985824585, 0.36505143034254345, 1727987020944243510, 
-0.27153486013412476, -0.03459453582763672, 0.4602531235456883, 1727987020981585263, 
-0.5426092743873596, 0.33228427171707153, 0.42885218368989514, 1727987021011442861, 
-0.07180976867675781, 0.6663761138916016, 0.40487009288930964, 1727987021041424363, 
-0.35970181226730347, 0.027690231800079346, 0.3674576543433382, 1727987021073330166, 
0.05214095115661621, -0.11532485485076904, 0.3999570799465319, 1727987021103436047, 
-0.5233131051063538, -0.0963788628578186, 0.40818534596255707, 1727987021140220523, 
0.066200852394104, -0.1278960108757019, 0.3542414870854244, 1727987021171149089, 
-0.07247430086135864, -0.1527687907218933, 0.38465708482816546, 1727987021201528451, 
0.05771291255950928, 0.3376094698905945, 0.36912773184613606, 1727987021232982710, 
-0.23380249738693237, 0.8066376447677612, 0.37571065891186456, 1727987021263183970, 
0.0629812479019165, -0.16941338777542114, 0.43649532934363167, 1727987021301031242, 
-0.5161710977554321, 0.12297677993774414, 0.4167933487733382, 1727987021330944643, 
0.19289320707321167, 0.6270564198493958, 0.38864687256076136, 1727987021361054368, 
-0.2744210362434387, -0.30608075857162476, 0.35012238557748565, 1727987021393360473, 
0.09405356645584106, -0.5545844435691833, 0.44947085521357966, 1727987021420844455, 
-0.2777741551399231, 0.39679962396621704, 0.4285068233425941, 1727987021450757010, 
0.5050688982009888, 0.4669496417045593, 0.43097085662251844, 1727987021480758460, 
-0.21203500032424927, 0.21645915508270264, 0.4441453769349292, 1727987021510697753, 
0.17409050464630127, -0.05017101764678955, 0.43038542954481873, 1727987021540636531, 
-0.2362830638885498, 0.20370423793792725, 0.4110674574694568, 1727987021570637685, 
-0.1928538680076599, 0.5188375115394592, 0.4169199313170976, 1727987021600931749, 
-0.42038965225219727, 0.3393283486366272, 0.37237034088127285, 1727987021632975699, 
-0.10473859310150146, 0.3021889328956604, 0.39738317689557606, 1727987021660579661, 
-0.04951673746109009, 0.0013157129287719727, 0.3562298820298283, 1727987021690453183, 
-0.31909751892089844, 0.09959948062896729, 0.3588584675223544, 1727987021720389251, 
-0.04090636968612671, 0.6541696190834045, 0.3828261615392137, 1727987021750379209, 
-0.2749117612838745, 0.4892326593399048, 0.4055157074068586, 1727987021780365277, 
0.4645274877548218, -0.09209936857223511, 0.4236420564573095, 1727987021810321499, 
-0.1801767349243164, 0.04899567365646362, 0.4137411455334261, 1727987021841377300, 
0.3940369486808777, 0.13018780946731567, 0.3809388144205811, 1727987021873006002, 
-0.24263322353363037, 0.5660958290100098, 0.42779459396342934, 1727987021900261347, 
0.45148777961730957, 0.2770617604255676, 0.4061367652699447, 1727987021940185405, 
0.07168197631835938, 0.2736503481864929, 0.4110864551987801, 1727987021970219554, 
-0.02875077724456787, -0.47146934270858765, 0.38210535482226593, 1727987022001261536, 
0.09137189388275146, -0.2191222906112671, 0.37926033099818846, 1727987022033346882, 
0.33920466899871826, 0.10866022109985352, 0.4507425370661504, 1727987022060014966, 
-0.021332144737243652, 0.4449925422668457, 0.41373404328445923, 1727987022088889740, 
-0.7771665453910828, -0.2807936668395996, 0.3976214012404401, 1727987022118892811, 
0.48853176832199097, -0.2391725778579712, 0.3789532974490576, 1727987022149832830, 
-0.2187356948852539, 0.2750706076622009, 0.4082058164377394, 1727987022179780534, 
0.07118880748748779, 0.38554900884628296, 0.4074334127304737, 1727987022209751614, 
-0.13742876052856445, 0.9782270193099976, 0.3823087065887464, 1727987022241435322, 
0.07068675756454468, 0.1642783284187317, 0.38034637842407953, 1727987022273097305, 
0.20387381315231323, -0.0704195499420166, 0.42663094607378044, 1727987022299677897, 
0.3689184784889221, 0.6704951524734497, 0.3793806674399392, 1727987022329571426, 
1.067098617553711, -0.3093656301498413, 0.35793510446010957, 1727987022352634930, 
-0.2338992953300476, 0.4012388586997986, 0.4533982109962131, 1727987022389517368, 
0.44817066192626953, -0.047837913036346436, 0.3929400812223297, 1727987022419455889, 
0.054815709590911865, -0.4506711959838867, 0.3847874639200602, 1727987022449450434, 
0.3600764274597168, 0.3085382580757141, 0.35128657441619304, 1727987022481408599, 
-0.46436262130737305, 0.51433926820755, 0.3696222542216718, 1727987022512071758, 
0.38581228256225586, 0.17152470350265503, 0.43107959135263463, 1727987022539292594, 
-0.34826332330703735, -0.03154003620147705, 0.3957219369088016, 1727987022569245386, 
0.7316602468490601, 0.046173810958862305, 0.3766467543795925, 1727987022599209381, 
0.006380438804626465, 0.12954115867614746, 0.3912023660040561, 1727987022629162486, 
0.6629378199577332, 0.5592418909072876, 0.41749277368760745, 1727987022659128642, 
-0.34881502389907837, -0.07548725605010986, 0.40844943172374837, 1727987022689542362, 
-0.10354447364807129, -0.687814474105835, 0.37601299196508214, 1727987022721168699, 
1.0505315065383911, -0.014802336692810059, 0.40717195475847684, 1727987022751105783, 
-0.23607349395751953, 0.3712053894996643, 0.44443373377726064, 1727987022778975719, 
-0.6009083986282349, -0.0945616364479065, 0.3940370978495152, 1727987022808945531, 
0.2799280881881714, 0.03932565450668335, 0.44725538771872897, 1727987022837899342, 
0.11295557022094727, 0.14024251699447632, 0.411498414733146, 1727987022869088869, 
-0.26533210277557373, 0.2136513590812683, 0.41360998032895285, 1727987022897891448, 
0.10398024320602417, 0.6832839250564575, 0.3878620609450258, 1727987022929460407, 
-0.31436753273010254, 0.21969324350357056, 0.40436356537495555, 1727987022961254951, 
-0.05054044723510742, 0.035275936126708984, 0.444766311451651, 1727987022988733389, 
-0.1403380036354065, 0.14145129919052124, 0.36107834108192327, 1727987023018790867, 
0.23979854583740234, 0.026356637477874756, 0.3715876233711141, 1727987023047884456, 
0.18364232778549194, 0.7763965129852295, 0.3653542091784391, 1727987023078584471, 
-0.9848690629005432, -0.10480636358261108, 0.3811390409874701, 1727987023108558741, 
0.7111040353775024, -0.3569689989089966, 0.3764542035706229, 1727987023138521989, 
-0.4005332589149475, 0.13939309120178223, 0.39426071807533297, 1727987023169196660, 
0.265302836894989, 0.6221053600311279, 0.3700174620556363, 1727987023201014957, 
-0.2731255888938904, 1.1007359027862549, 0.39534961742060115, 1727987023228707688, 
0.39456796646118164, -0.06949752569198608, 0.40245259358455904, 1727987023258332388, 
-0.12497442960739136, 0.0009958744049072266, 0.39245988599680215, 1727987023288296164, 
-0.06934720277786255, 0.7181298732757568, 0.37547022839014915, 1727987023318253405, 
0.3728335499763489, -0.21108269691467285, 0.3990056218299773, 1727987023348192287, 
-0.6237602233886719, 0.45468562841415405, 0.42391222370048476, 1727987023378227991, 
0.4585404396057129, -0.14489847421646118, 0.4110936967147211, 1727987023408997981, 
-0.24001073837280273, -0.7302021980285645, 0.3618863816572986, 1727987023441722061, 
-0.04480248689651489, 0.27654945850372314, 0.4724795017407161, 1727987023468288643, 
-0.46800267696380615, -0.02912425994873047, 0.4081666270874494, 1727987023498220332, 
0.6053135991096497, -0.03471064567565918, 0.3780042915690441, 1727987023528065659, 
-0.2418522834777832, 0.36401599645614624, 0.3819385710613144, 1727987023558009011, 
0.9414947628974915, 0.3622973561286926, 0.395854763467521, 1727987023587997597, 
-0.34197086095809937, 0.3558303713798523, 0.36091402865340594, 1727987023618060414, 
0.09172821044921875, -0.392397940158844, 0.34027286362670606, 1727987023649037488, 
1.5133646726608276, -0.233970046043396, 0.37041670822090794, 1727987023681353517, 
0.4061703085899353, 0.5976043343544006, 0.4315651766396198, 1727987023708026415, 
0.24316275119781494, 0.1543610692024231, 0.3558394685710568, 1727987023737922689, 
0.026657283306121826, -0.08127129077911377, 0.4242618278726229, 1727987023767843887, 
-0.16612893342971802, -0.25686484575271606, 0.4382911982804116, 1727987023797797924, 
0.7130773663520813, -0.48667168617248535, 0.411921748353394, 1727987023827866011, 
0.5999106168746948, -0.0007575750350952148, 0.4071703256391187, 1727987023857797572, 
-0.2702617645263672, 0.491047203540802, 0.3757314592316061, 1727987023889581426, 
0.251140296459198, -0.2065257430076599, 0.39549503438875183, 1727987023920186490, 
-0.46090054512023926, 0.0036083459854125977, 0.45418304024322825, 1727987023947720403, 
0.6740143299102783, 0.0878591537475586, 0.40935068076828574, 1727987023977715390, 
-0.3528263568878174, 0.3161360025405884, 0.4128509320783754, 1727987024007716499, 
0.21595478057861328, 0.3458648920059204, 0.39446815130964924, 1727987024037689434, 
-0.2581227421760559, 0.14209455251693726, 0.39754174084705113, 1727987024067695078, 
-0.12108492851257324, -0.033045947551727295, 0.39808912360558, 1727987024097705446, 
0.5340321660041809, -0.026447534561157227, 0.3499898315233044, 1727987024129435586, 
-0.33744096755981445, 0.5219258666038513, 0.38793790864610234, 1727987024159115134, 
0.02777761220932007, 0.2934646010398865, 0.41444408091658136, 1727987024187694786, 
0.42324405908584595, 0.28537219762802124, 0.3945630082029658, 1727987024217586635, 
0.12135404348373413, 0.061390578746795654, 0.37738794072834786, 1727987024247617595, 
0.07924550771713257, -0.16809046268463135, 0.36970011788845614, 1727987024277652547, 
0.49882638454437256, 1.165570616722107, 0.38406208508643186, 1727987024307620786, 
-0.5391502976417542, 0.30435848236083984, 0.38428327365899734, 1727987024337596549, 
-0.04524272680282593, -0.5594911575317383, 0.3579311727991482, 1727987024369009197, 
0.32004761695861816, 0.2656511068344116, 0.4277204188682872, 1727987024396837836, 
0.35028916597366333, 0.3506332039833069, 0.42382780224651156, 1727987024426766565, 
0.049750685691833496, 0.2607089877128601, 0.4237287615127243, 1727987024456683917, 
-0.13972103595733643, -0.04646921157836914, 0.40146596918179533, 1727987024486639996, 
0.3602754473686218, -0.04088681936264038, 0.39681686613287903, 1727987024516634023, 
0.043855369091033936, 0.15972381830215454, 0.3934997083621823, 1727987024546583100, 
-0.23720967769622803, -0.22679775953292847, 0.3517711890393076, 1727987024577401616, 
-0.26649409532546997, 0.48096221685409546, 0.318904461694162, 1727987024609128955, 
0.6020153164863586, -0.009654581546783447, 0.4369193368763437, 1727987024636530047, 
-0.5172439813613892, -0.0529940128326416, 0.4042363360536891, 1727987024666559830, 
0.610409140586853, -0.1600537896156311, 0.4044634023517446, 1727987024696389936, 
-0.4754565358161926, 0.14225071668624878, 0.41102262238747356, 1727987024726389960, 
0.32632941007614136, 0.17070865631103516, 0.4076619614063317, 1727987024756578538, 
-0.7764213681221008, -0.277817964553833, 0.3679682485141181, 1727987024786373141, 
0.30490630865097046, -0.31441640853881836, 0.39409818440083383, 1727987024817439627, 
-0.029306352138519287, 0.6349793672561646, 0.39254188421421005, 1727987024849581300, 
-0.2095131278038025, -0.06474703550338745, 0.4205509594058245, 1727987024886172091, 
-0.021998882293701172, -0.025711238384246826, 0.40048304702109216, 1727987024916123272, 
0.1621326208114624, 0.27886319160461426, 0.3902192517820105, 1727987024946274928, 
-0.3283889889717102, -0.017470240592956543, 0.350658860707539, 1727987024977673142, 
0.34581702947616577, 0.03449690341949463, 0.37436908979449224, 1727987025009178657, 
-0.08200371265411377, 0.4774631857872009, 0.4759599152646156, 1727987025035953724, 
-0.440951406955719, 0.17285358905792236, 0.42015939659716667, 1727987025064873486, 
0.25687557458877563, -0.0882260799407959, 0.39260473587742883, 1727987025094879092, 
0.006729423999786377, -0.1681632399559021, 0.39618445147804415, 1727987025125804726, 
0.3738533854484558, 0.08483052253723145, 0.40741023532612686, 1727987025155727476, 
-0.1538030505180359, 0.41719186305999756, 0.40904307674117385, 1727987025185748223, 
0.9714860320091248, 0.17748743295669556, 0.3993783915238508, 1727987025217443899, 
-0.30280154943466187, 0.048505961894989014, 0.40184210410647725, 1727987025248870652, 
-0.10110253095626831, -0.11946076154708862, 0.4799070323122583, 1727987025275632240, 
-0.3312373161315918, -0.4158593416213989, 0.4395298774816696, 1727987025305572681, 
-0.25390398502349854, 0.4324319362640381, 0.453775628728722, 1727987025335504874, 
-0.25028979778289795, 0.3451927900314331, 0.4301192240200953, 1727987025364444567, 
-0.459009051322937, -0.6371081471443176, 0.3855202983853962, 1727987025395437662, 
0.13448113203048706, -0.03474152088165283, 0.3946511785966291, 1727987025425740637, 
-0.41518503427505493, 0.7527477741241455, 0.37402917850254846, 1727987025457743297, 
0.0933387279510498, 0.5273710489273071, 0.40006879151858005, 1727987025487258646, 
-0.1415737271308899, 0.20727461576461792, 0.4250241626700523, 1727987025525247321, 
-0.02062910795211792, 0.11130058765411377, 0.39427562746537254, 1727987025555232617, 
-0.40219491720199585, 0.3792721629142761, 0.36293730233173604, 1727987025585564146, 
0.40614092350006104, -0.2627074718475342, 0.34546604575971285, 1727987025617778428, 
-0.27901124954223633, 0.17686361074447632, 0.38897003109545175, 1727987025647282879, 
0.30953097343444824, 0.5762189626693726, 0.4004952900234312, 1727987025685031257, 
-0.08499622344970703, -0.6803339719772339, 0.42708514920894974, 1727987025715019949, 
0.14117413759231567, -0.21628433465957642, 0.430256041743794, 1727987025745858047, 
0.20183759927749634, 0.7826404571533203, 0.4078365128204538, 1727987025777309541, 
0.23057734966278076, 0.03772532939910889, 0.4678182653638194, 1727987025804981588, 
0.04464751482009888, -0.2125455141067505, 0.4309370439724858, 1727987025835371165, 
-0.04322803020477295, 0.04611945152282715, 0.43220776770504327, 1727987025864837895, 
-0.27009010314941406, -0.02226722240447998, 0.39858440481422064, 1727987025894771984, 
-0.7209699153900146, 0.2760060429573059, 0.38961548393182477, 1727987025924743531, 
-0.3323654532432556, 0.2607133388519287, 0.37072970392825366, 1727987025954675237, 
-0.08280646800994873, 0.09950774908065796, 0.36490774501345347, 1727987025985488581, 
0.0020022988319396973, 0.08799391984939575, 0.36551658758676386, 1727987026017636069, 
-0.2191530466079712, -0.011188387870788574, 0.4348469620562926, 1727987026044602309, 
0.022742807865142822, 0.8506286144256592, 0.4087465854730392, 1727987026073508527, 
0.036591172218322754, 0.6114932298660278, 0.3740968460206563, 1727987026104483148, 
0.22613656520843506, -0.39058607816696167, 0.389073254258029, 1727987026134401964, 
0.03290688991546631, -0.2572013735771179, 0.3511763085514968, 1727987026164427859, 
0.6606479287147522, 0.5028485059738159, 0.35941201676648477, 1727987026194352870, 
-0.3993794918060303, 0.1508558988571167, 0.34390824177513557, 1727987026225345332, 
0.033245980739593506, -0.25752782821655273, 0.3322052907221381, 1727987026257975036, 
0.44136375188827515, 0.2485310435295105, 0.44299028834649684, 1727987026284351891, 
-0.4296379089355469, 0.7654018402099609, 0.4192297527222063, 1727987026314152396, 
-0.12528496980667114, 0.08266842365264893, 0.417186367110489, 1727987026344187171, 
-0.1139981746673584, 0.6648702025413513, 0.4240480114878124, 1727987026374189153, 
0.6442525386810303, 0.4765409827232361, 0.43803352308827154, 1727987026404161559, 
-0.1109800934791565, 0.5786830186843872, 0.4276650928192933, 1727987026434166226, 
0.0780453085899353, 0.49616682529449463, 0.39762353964593894, 1727987026465668242, 
-1.593774437904358, -0.13962680101394653, 0.39004963274497095, 1727987026496493193, 
0.5571469664573669, -0.3622249364852905, 0.43478065646106423, 1727987026523990066, 
0.18052321672439575, 0.5141802430152893, 0.41573012410619437, 1727987026552885070, 
-0.39728641510009766, -0.8237043023109436, 0.333432066716489, 1727987026576497913, 
-0.42519915103912354, 0.31997931003570557, 0.4292646043974174, 1727987026613764779, 
-0.5060499310493469, -0.2408212423324585, 0.4113452230174988, 1727987026643750635, 
0.8148597478866577, -0.055196940898895264, 0.41678140216824, 1727987026673727003, 
-0.03131425380706787, 0.5531150698661804, 0.37767319116728826, 1727987026706114830, 
0.1047789454460144, -0.13732445240020752, 0.40330675671369415, 1727987026736073726, 
-0.16748440265655518, 0.3576105237007141, 0.4371735478840135, 1727987026763658002, 
0.4022418260574341, 0.1675514578819275, 0.397846052900303, 1727987026792550216, 
-0.445192813873291, -0.7504063248634338, 0.37140802684552043, 1727987026823513244, 
-0.16124898195266724, 0.3480362892150879, 0.41529710145211896, 1727987026853465101, 
-0.3229641914367676, 0.4530453681945801, 0.45543811854549826, 1727987026883424032, 
-0.03386533260345459, -0.3810691237449646, 0.4503426802629031, 1727987026913587948, 
-0.08150553703308105, -0.38615959882736206, 0.3820591732306176, 1727987026945572778, 
-0.18019872903823853, 0.16758888959884644, 0.41652326750076285, 1727987026973305096, 
0.15572375059127808, 0.5338156223297119, 0.3787206399595757, 1727987027003266240, 
-0.4495226740837097, -0.0033264756202697754, 0.3831028995249712, 1727987027033233776, 
0.5908433794975281, -0.25287431478500366, 0.41086123698657573, 1727987027063218537, 
-0.20020079612731934, -0.08946698904037476, 0.43018818898693095, 1727987027093115975, 
0.16241669654846191, 0.41167545318603516, 0.40968508727386654, 1727987027123128152, 
-0.30991417169570923, 0.7318409085273743, 0.4029617484009936, 1727987027154172986, 
0.44409751892089844, 0.10991519689559937, 0.4026388260420263, 1727987027185489317, 
0.266737699508667, -0.04956841468811035, 0.42120820246813967, 1727987027213069071, 
0.08212399482727051, 0.7474404573440552, 0.38165804109410173, 1727987027243000899, 
-0.5723909139633179, -0.0547633171081543, 0.42201994893670963, 1727987027271938449, 
-0.43822139501571655, 0.16380059719085693, 0.41659258268465477, 1727987027302839502, 
0.14479148387908936, 0.30391550064086914, 0.41069539019264767, 1727987027332800676, 
0.012730181217193604, -0.531014084815979, 0.39723572076231756, 1727987027362778616, 
0.5656446218490601, 0.24179738759994507, 0.3940970526959583, 1727987027393244128, 
-0.5787423253059387, 0.8014281988143921, 0.3598207876964069, 1727987027425596066, 
0.010763168334960938, 0.1326436996459961, 0.42884524863630497, 1727987027452754022, 
0.027373194694519043, -0.14910966157913208, 0.4228902193263077, 1727987027482646814, 
0.4132682681083679, 0.07765954732894897, 0.4112992705926828, 1727987027512539849, 
-0.2863232493400574, 0.6466198563575745, 0.3719899657097129, 1727987027542530742, 
0.695857584476471, 0.13742905855178833, 0.3694381240993426, 1727987027572510963, 
0.013797342777252197, 0.12112009525299072, 0.4099169612050459, 1727987027602428966, 
0.3488280177116394, -0.36342912912368774, 0.3827915431513331, 1727987027633239155, 
0.11665397882461548, -0.16825050115585327, 0.3807930850660738, 1727987027666524744, 
-0.11051911115646362, 0.17123687267303467, 0.5114128443893429, 1727987027692929161, 
-0.5803468823432922, -0.42184579372406006, 0.4434015178059158, 1727987027721961602, 
0.3697829842567444, -0.060594260692596436, 0.39526401696493774, 1727987027752838623, 
0.13362306356430054, 0.21819889545440674, 0.4192623369788973, 1727987027781976853, 
-0.8867071270942688, 0.010270476341247559, 0.3757995138111346, 1727987027812848333, 
0.27130138874053955, 0.4464380741119385, 0.37560485463409915, 1727987027843002497, 
-0.4264928102493286, 0.11006790399551392, 0.3766429368472673, 1727987027873657874, 
0.0751376748085022, -0.274371862411499, 0.3726991290026695, 1727987027905117132, 
-0.22316861152648926, 0.3195001482963562, 0.4566030135380897, 1727987027932147341, 
0.2763212323188782, -0.2856934666633606, 0.4018647557068929, 1727987027962082435, 
0.31874096393585205, -0.012185215950012207, 0.4111682841433859, 1727987027991927320, 
0.23139703273773193, 0.08102619647979736, 0.3834742474066839, 1727987028022028684, 
-0.19210833311080933, 0.1803492307662964, 0.34860699594244243, 1727987028051850282, 
-0.8741557002067566, -0.040942370891571045, 0.3620451326985036, 1727987028081817008, 
-0.14209657907485962, -0.12883645296096802, 0.36817255886556377, 1727987028113278797, 
-0.14557957649230957, 0.055543482303619385, 0.3991511722090169, 1727987028143756216, 
0.08706825971603394, -0.015744566917419434, 0.4506334297160159, 1727987028181635586, 
-0.04768592119216919, -0.18131184577941895, 0.43177795449844525, 1727987028211664775, 
0.7347880005836487, -0.45120763778686523, 0.4259727762911614, 1727987028241590836, 
-0.21650385856628418, 0.5710209608078003, 0.40285507732840775, 1727987028273725413, 
-0.04171288013458252, 0.25729745626449585, 0.4684924603562997, 1727987028301530650, 
-0.2441425919532776, -0.14907938241958618, 0.431095336090325, 1727987028331420742, 
0.49193036556243896, 0.005554378032684326, 0.3911586744537826, 1727987028361368988, 
-0.16922610998153687, 0.13640594482421875, 0.3892020524494056, 1727987028391424765, 
-0.1526462435722351, 0.17022961378097534, 0.3950818602369421, 1727987028421367682, 
-0.6478511095046997, 0.21259361505508423, 0.3921295956450745, 1727987028451343629, 
0.027254104614257812, 0.08200019598007202, 0.3811708417270815, 1727987028482150364, 
-0.09395676851272583, -0.22546321153640747, 0.3661062281853913, 1727987028513396295, 
0.305267870426178, -0.08856439590454102, 0.38912185583407477, 1727987028541222258, 
-0.34475016593933105, 0.2803519368171692, 0.37516307426044987, 1727987028571075770, 
-0.6297722458839417, 0.26568013429641724, 0.3623036144240067, 1727987028601102503, 
0.4795494079589844, 0.29913538694381714, 0.3711520513416308, 1727987028631061528, 
-0.13482147455215454, -0.022333383560180664, 0.3983615284095965, 1727987028661031409, 
0.1635676622390747, -0.07249701023101807, 0.40176988049838197, 1727987028691202790, 
0.03215521574020386, 1.1339606046676636, 0.4260301708620225, 1727987028721577174, 
0.34788185358047485, 0.5585699081420898, 0.40356469543658174, 1727987028753272983, 
-0.0468364953994751, -0.2893146872520447, 0.4387311780004547, 1727987028781156436, 
0.10161000490188599, 0.14349216222763062, 0.4117787684648356, 1727987028810852242, 
-0.11997020244598389, 0.33043116331100464, 0.42589415761759236, 1727987028840726880, 
-0.702305018901825, 0.36294734477996826, 0.39422340269074113, 1727987028870706649, 
-0.14660274982452393, -0.21033084392547607, 0.3790823985785236, 1727987028900752412, 
-0.38060230016708374, 0.008691847324371338, 0.3793904954533697, 1727987028931090212, 
0.4106283187866211, 0.14692771434783936, 0.41628425313570955, 1727987028961527560, 
-0.8925100564956665, 0.13204896450042725, 0.38723557437536393, 1727987028993766555, 
0.636688768863678, 0.24877703189849854, 0.46659674426132974, 1727987029020578032, 
-0.4442026615142822, -0.25569450855255127, 0.4152241522772482, 1727987029050475074, 
0.8515138626098633, -0.2511613965034485, 0.39235983961035964, 1727987029080437480, 
-0.4872896075248718, -0.13221311569213867, 0.3705824043824036, 1727987029100610641, 
0.925708532333374, 0.23598980903625488, 0.40414898858800447, 1727987029140371958, 
-0.42889487743377686, 0.3094739317893982, 0.4143935343413792, 1727987029170293592, 
-0.3217471241950989, -0.35984253883361816, 0.3790750104399114, 1727987029201302116, 
0.16779059171676636, -0.38155627250671387, 0.3687168880032502, 1727987029233356157, 
-0.886359453201294, 0.8660991191864014, 0.44996301620290435, 1727987029260262775, 
0.0830656886100769, 0.7113121747970581, 0.4062759524551733, 1727987029290146252, 
-0.6646691560745239, -0.23631036281585693, 0.4220429413979689, 1727987029320151392, 
0.5562750697135925, -0.08721345663070679, 0.4329664580225303, 1727987029350138170, 
-0.16546130180358887, 0.32605600357055664, 0.4315855538417408, 1727987029380088586, 
0.4582265019416809, -0.6226130723953247, 0.4061233288675949, 1727987029410208339, 
-0.04830586910247803, 0.06072169542312622, 0.3901328429173622, 1727987029440917752, 
0.29114198684692383, 0.11679983139038086, 0.37249243733345205, 1727987029472166709, 
-0.3813735246658325, 0.5799621939659119, 0.4293403001485264, 1727987029498901479, 
0.6967824101448059, 0.2637302875518799, 0.3880582011970717, 1727987029529821707, 
-0.006411850452423096, -0.08553749322891235, 0.42943588122448445, 1727987029559791640, 
-0.15364956855773926, 0.0822952389717102, 0.4197529099684323, 1727987029589739385, 
-0.13867288827896118, 0.22308415174484253, 0.421920427591113, 1727987029618694974, 
-0.8078436255455017, 0.6941531896591187, 0.41471345872315063, 1727987029649669926, 
-0.5182787775993347, -0.2395440936088562, 0.40815130132239086, 1727987029681417143, 
0.10096698999404907, -0.3235175609588623, 0.4206978841481751, 1727987029711609916, 
0.3462378978729248, 0.3532634377479553, 0.44531119799496277, 1727987029739512973, 
-0.6314529776573181, 0.6361876726150513, 0.4158627098298367, 1727987029769485267, 
0.032506346702575684, 0.3955270051956177, 0.40493826475792466, 1727987029799492637, 
0.10227328538894653, 0.017286598682403564, 0.41657449692201254, 1727987029829392437, 
0.815809965133667, 0.15581011772155762, 0.40528505581665075, 1727987029859341525, 
-0.21095073223114014, 0.32203567028045654, 0.3688973340479926, 1727987029889977629, 
0.10145503282546997, 0.027496039867401123, 0.3541486124246067, 1727987029921424567, 
0.24816572666168213, 0.2598217725753784, 0.413888270684234, 1727987029949333178, 
0.2420751452445984, -0.11033564805984497, 0.38220850362517483, 1727987029979195774, 
0.5733211040496826, -0.1445503830909729, 0.3889281765365341, 1727987030009222949, 
-0.44884270429611206, -0.09710520505905151, 0.425468753279882, 1727987030039121744, 
0.17220860719680786, 0.4341859221458435, 0.42401495475751133, 1727987030069115577, 
-0.048074185848236084, 0.26469939947128296, 0.4106388704256991, 1727987030099091176, 
0.5887864232063293, -0.3685266375541687, 0.40550647361589276, 1727987030129443925, 
-0.3723319172859192, -0.09218764305114746, 0.38153516937243276, 1727987030161624520, 
0.3754193186759949, 0.5001827478408813, 0.42876190233416983, 1727987030189006327, 
-1.0019384622573853, 0.010779380798339844, 0.3879141983091783, 1727987030218849595, 
0.04684615135192871, -0.679151713848114, 0.3920574280023059, 1727987030248858335, 
-0.123196542263031, -0.06153661012649536, 0.415253135456064, 1727987030278826331, 
0.11237740516662598, 0.37335771322250366, 0.41958960938618545, 1727987030308819314, 
-0.7675542235374451, 0.2299373745918274, 0.444281025800154, 1727987030337738530, 
-0.32407116889953613, 0.29364681243896484, 0.42444827900986604, 1727987030368448475, 
0.11950081586837769, 0.0991256833076477, 0.35149137725519725, 1727987030402123403, 
-0.34031742811203003, 0.31583553552627563, 0.41521912182432696, 1727987030428618402, 
-0.12714612483978271, 0.2738478183746338, 0.36863383411349376, 1727987030458565840, 
-0.38035523891448975, 0.5977290868759155, 0.3576523383854805, 1727987030488572490, 
0.4136502742767334, 0.3100959062576294, 0.3465107713382977, 1727987030518475995, 
0.19666236639022827, -0.42931145429611206, 0.36438885096351115, 1727987030548453809, 
0.19778549671173096, 0.10266786813735962, 0.38406423028777475, 1727987030578442553, 
-0.22555047273635864, 0.51706862449646, 0.40576944508911, 1727987030609464795, 
-0.5799434185028076, 0.3897974491119385, 0.37943525472216777, 1727987030641729446, 
-0.07628089189529419, -0.2590387463569641, 0.46539611371877354, 1727987030668342567, 
-0.05002802610397339, -0.0010216832160949707, 0.4206267336873459, 1727987030698360817, 
0.3775801658630371, 0.7340372800827026, 0.4152522949376254, 1727987030728524355, 
-0.7785592675209045, 0.501149594783783, 0.40479604738146, 1727987030758371699, 
0.5250973105430603, 0.14118248224258423, 0.425288748631906, 1727987030788336866, 
-0.1589871048927307, -0.04086405038833618, 0.41769993531988986, 1727987030818413805, 
0.6625199913978577, -0.1842150092124939, 0.37685972758514247, 1727987030850174745, 
-0.17628979682922363, 0.16854697465896606, 0.3877946395607516, 1727987030880999626, 
0.5792120099067688, 0.06357979774475098, 0.4274650484771926, 1727987030908496085, 
0.2528117895126343, 0.1825161576271057, 0.3834408793617892, 1727987030938370000, 
-0.5548799633979797, 0.40957242250442505, 0.3829834018202233, 1727987030968438177, 
0.5399563312530518, 0.7209891676902771, 0.42651875784870874, 1727987030998161924, 
-0.4310598373413086, 0.16659486293792725, 0.437097600185329, 1727987031028163513, 
0.19845736026763916, -0.6502397060394287, 0.39978468376912835, 1727987031058214253, 
0.09735983610153198, 0.03913038969039917, 0.35602667745010513, 1727987031089472365, 
0.3561546802520752, 0.592078685760498, 0.3516912322302712, 1727987031120286829, 
-1.000244379043579, -0.35410451889038086, 0.4048062430403521, 1727987031148131127, 
0.8356218934059143, -0.20624250173568726, 0.39536272779339693, 1727987031178143188, 
0.6144019365310669, 0.13218694925308228, 0.42844413814305615, 1727987031208149149, 
0.33014094829559326, -0.030719399452209473, 0.4204776888636249, 1727987031238113468, 
-0.42887794971466064, 0.11170512437820435, 0.40885485456923565, 1727987031268072239, 
0.41892874240875244, 0.24867182970046997, 0.41321785867751515, 1727987031298287836, 
0.16946208477020264, -0.033386826515197754, 0.3996898444192539, 1727987031329456807, 
0.414914608001709, -0.0931401252746582, 0.4464550338681509, 1727987031357417015, 
0.31775838136672974, 0.13331764936447144, 0.43515692660682315, 1727987031387398903, 
-0.4578477144241333, 0.412031888961792, 0.43026768470090065, 1727987031417263962, 
-0.40335017442703247, -0.23837608098983765, 0.3808628910703623, 1727987031447271979, 
0.020891249179840088, -0.1504911184310913, 0.375144080475403, 1727987031477235198, 
-0.05737495422363281, -0.032032668590545654, 0.39527962493840396, 1727987031507166091, 
-0.7163030505180359, 0.6252239942550659, 0.37450122514050815, 1727987031537942593, 
-0.4678593873977661, 0.7569104433059692, 0.35309496925487893, 1727987031569465708, 
-0.16494262218475342, -0.18848365545272827, 0.434761551399707, 1727987031597078724, 
0.4066520929336548, -0.17016923427581787, 0.4095515932752419, 1727987031627010003, 
-0.39944320917129517, 0.9399892091751099, 0.38168392675922347, 1727987031656969894, 
0.5001815557479858, 0.37868475914001465, 0.3786701798021604, 1727987031685893055, 
-0.31629765033721924, -0.426408588886261, 0.3867910737270026, 1727987031716871196, 
-0.0011653900146484375, 0.4980919361114502, 0.4085610325264027, 1727987031745865536, 
0.22134017944335938, 0.1392807960510254, 0.38064582664730884, 1727987031777700974, 
-0.41817575693130493, 0.4622621536254883, 0.3990999002720238, 1727987031809923350, 
0.43530380725860596, 0.5269137620925903, 0.4428324850926211, 1727987031836769530, 
-0.27181971073150635, 0.48623359203338623, 0.3673467532830089, 1727987031867143834, 
0.5780295729637146, -0.18417048454284668, 0.39941290672280044, 1727987031896590633, 
-0.08581393957138062, 0.08269703388214111, 0.39733846577231585, 1727987031926627749, 
0.03374844789505005, 0.5544605255126953, 0.37567462787907374, 1727987031956556335, 
-0.2853964567184448, 0.182511568069458, 0.3870482096500525, 1727987031986515955, 
-0.3212975263595581, -0.005455315113067627, 0.3946946099301945, 1727987032018013540, 
-0.020998477935791016, -0.3714359998703003, 0.3886193041024731, 1727987032049864206, 
0.458243727684021, 0.04721522331237793, 0.45608872964284036, 1727987032076816553, 
0.18065160512924194, 0.05983847379684448, 0.43098754874215545, 1727987032106325471, 
-1.1236399412155151, -0.21429318189620972, 0.3896803317028888, 1727987032136308882, 
0.38700592517852783, 0.05677729845046997, 0.3730020820137779, 1727987032166252818, 
-0.1407623291015625, 0.0403253436088562, 0.3860073346294158, 1727987032196204326, 
0.4232984781265259, -0.029284954071044922, 0.40988353659034565, 1727987032226197303, 
-0.4582052230834961, 0.47857582569122314, 0.38993888835549306, 1727987032258349077, 
0.2982115149497986, 0.19981276988983154, 0.3869364482442325, 1727987032289087505, 
0.2029772400856018, 0.051555335521698, 0.4469678986375284, 1727987032316205801, 
0.32013869285583496, 0.007138967514038086, 0.3824997295476482, 1727987032346090527, 
-0.522311806678772, -0.16710656881332397, 0.36160276059342483, 1727987032376183421, 
0.08926856517791748, -0.5253540277481079, 0.3784492801427793, 1727987032406139089, 
-0.1226874589920044, -0.07535982131958008, 0.4300797070974761, 1727987032434883615, 
0.43076056241989136, 0.3186728358268738, 0.38510677445081626, 1727987032465848772, 
-0.21692299842834473, 0.14298731088638306, 0.3758792405909526, 1727987032497983829, 
-0.8344699740409851, -0.0338740348815918, 0.3966097812182034, 1727987032527968100, 
0.41719627380371094, -0.1699753999710083, 0.40314379734286215, 1727987032555684014, 
-0.02317368984222412, 0.07857328653335571, 0.39959583033779356, 1727987032585644848, 
-0.09318852424621582, 0.219393789768219, 0.4095034794225041, 1727987032615654440, 
-0.08597201108932495, 0.8452585935592651, 0.4205756473606584, 1727987032645585506, 
0.24265003204345703, 0.3780607581138611, 0.4285960911626876, 1727987032675522789, 
0.19560003280639648, -0.47132813930511475, 0.41604402356102127, 1727987032706112482, 
0.6755664348602295, 0.5414389371871948, 0.4028311379036543, 1727987032738424570, 
-0.060662269592285156, 0.3306159973144531, 0.4580276790934557, 1727987032765482807, 
-0.4836973547935486, 0.151211678981781, 0.3969384327854012, 1727987032795408799, 
0.15881335735321045, -0.0889897346496582, 0.3894507170622691, 1727987032825351775, 
0.03404700756072998, 0.26916825771331787, 0.3980224157603536, 1727987032855317207, 
0.23551493883132935, 0.5862230062484741, 0.3657332116103835, 1727987032885252409, 
-0.7704582214355469, 0.013682723045349121, 0.34508170601986704, 1727987032915541151, 
0.0972663164138794, 0.38756120204925537, 0.367108709737729, 1727987032944881406, 
-0.2263689637184143, -0.07428878545761108, 0.35458203223293244, 1727987032978069197, 
0.3478899598121643, -0.0035831332206726074, 0.4266882352067375, 1727987033005213738, 
-0.21221792697906494, 0.6375139951705933, 0.42741197306802764, 1727987033035061579, 
0.24616795778274536, 0.2178431749343872, 0.4402968884979187, 1727987033065031912, 
0.04520648717880249, 0.01864069700241089, 0.4265593767715358, 1727987033095019772, 
-0.06781810522079468, -0.29744499921798706, 0.4078988185504479, 1727987033124962859, 
0.6044965982437134, -0.2542372941970825, 0.4459288356952867, 1727987033153913717, 
0.0702742338180542, 0.6409176588058472, 0.3924747474921561, 1727987033185709051, 
-0.23044729232788086, 0.170781672000885, 0.37126449262032996, 1727987033218179546, 
-0.20868486166000366, -0.3566589951515198, 0.46882817138283633, 1727987033244852901, 
0.770430326461792, -0.08518463373184204, 0.41912882114026345, 1727987033274731250, 
-0.159925639629364, 0.4301234483718872, 0.39331389208297673, 1727987033304745594, 
-0.03677213191986084, 0.27061694860458374, 0.3918776859665218, 1727987033334657286, 
-0.7915005087852478, -0.09173756837844849, 0.4091490706645477, 1727987033364625209, 
0.29490047693252563, -0.048654258251190186, 0.40709463493694176, 1727987033394602057, 
-0.3727894425392151, 0.0930178165435791, 0.3639793681914735, 1727987033426565158, 
0.5765777826309204, 0.11461985111236572, 0.3724270317692784, 1727987033457794271, 
-0.518440842628479, 0.5988373160362244, 0.4236730623536775, 1727987033484508899, 
-0.9450574517250061, 0.18772989511489868, 0.3457465355679299, 1727987033514416842, 
0.15173208713531494, 0.14879900217056274, 0.35892733714355457, 1727987033544394795, 
-0.4671589136123657, 0.02091991901397705, 0.431232840022694, 1727987033574342332, 
-0.5791385173797607, 0.46691328287124634, 0.41831130297242275, 1727987033604336859, 
0.4284217953681946, 0.7569286227226257, 0.3983952004313988, 1727987033634289898, 
0.020252466201782227, 0.011727988719940186, 0.37230274470638164, 1727987033666226112, 
0.5639243721961975, -0.27303826808929443, 0.3930545119074206, 1727987033696837079, 
0.30594462156295776, 0.8114759922027588, 0.4527047331317676, 1727987033724218452, 
0.45787644386291504, 0.2285670042037964, 0.41847159556636837, 1727987033754092067, 
-0.2204234004020691, 0.2724006175994873, 0.40814264499022, 1727987033784164425, 
0.06047320365905762, 0.07627665996551514, 0.39839432369163197, 1727987033814077871, 
-0.10557490587234497, 0.11818736791610718, 0.39426887295516144, 1727987033844177697, 
-0.13557928800582886, 0.2946156859397888, 0.3974626962407284, 1727987033874186534, 
0.03461819887161255, -0.028129220008850098, 0.3676582809407479, 1727987033905808009, 
0.5725354552268982, -0.0727265477180481, 0.42023780319361675, 1727987033933846603, 
0.1740971803665161, 0.6587473154067993, 0.42363441914811095, 1727987033963830832, 
0.04266434907913208, 0.13314402103424072, 0.40772393743608953, 1727987033993762086, 
0.2888588309288025, 0.37828099727630615, 0.3975412076905384, 1727987034023723390, 
0.6346150040626526, -0.051751673221588135, 0.41326460848386026, 1727987034053683910, 
0.6535730361938477, -0.11958569288253784, 0.43061768466259875, 1727987034083653548, 
0.44179731607437134, 0.9204820990562439, 0.3861555439150067, 1727987034114085911, 
-0.5664072632789612, 0.15026074647903442, 0.3508837770569077, 1727987034146065851, 
-0.1686987280845642, -0.3225383758544922, 0.416465729609558, 1727987034173594588, 
-0.09951335191726685, -0.007082164287567139, 0.36240901120865565, 1727987034203507933, 
-0.08542490005493164, 0.11358314752578735, 0.3678456335270356, 1727987034233444467, 
-0.5114741921424866, 0.26237982511520386, 0.4122130057262774, 1727987034263406365, 
-0.5667096972465515, 0.22601699829101562, 0.4303328733800793, 1727987034293409321, 
0.14393222332000732, -0.017933547496795654, 0.42823112785474243, 1727987034323342854, 
0.12177568674087524, -0.17031657695770264, 0.42565611763268263, 1727987034354088579, 
0.08253318071365356, 0.26677054166793823, 0.4057206873315883, 1727987034385815053, 
-0.2792986035346985, 0.18658828735351562, 0.45017760571036786, 1727987034413268221, 
0.37185609340667725, 0.02698981761932373, 0.418202460636815, 1727987034443138894, 
0.12672901153564453, 0.029040157794952393, 0.4075647655544005, 1727987034473136963, 
0.35405057668685913, 0.20910698175430298, 0.3821849017667177, 1727987034503096530, 
-0.06638586521148682, 0.46246635913848877, 0.4015555588805978, 1727987034532078442, 
-0.3511343002319336, 0.167630136013031, 0.39868059001869927, 1727987034563095068, 
-0.49090683460235596, -0.11965334415435791, 0.4100611813857034, 1727987034593826971, 
0.47037452459335327, -0.13740450143814087, 0.38389654237990833, 1727987034626436473, 
-0.5702341794967651, -0.09928572177886963, 0.45411955560382633, 1727987034662848748, 
-0.6167303919792175, 0.11229884624481201, 0.42529539449416137, 1727987034692827985, 
0.21556633710861206, 0.08492666482925415, 0.43078856347767913, 1727987034722739118, 
-0.043493688106536865, 0.5008206963539124, 0.37977084674874473, 1727987034753946955, 
-0.15741169452667236, 0.02047508955001831, 0.35609273459295304, 1727987034785846730, 
-0.006991565227508545, 0.08586186170578003, 0.4043950855352535, 1727987034823298487, 
0.20621508359909058, 0.6889296770095825, 0.38535653604099535, 1727987034853286239, 
-0.48454123735427856, -0.17142140865325928, 0.40392428765139343, 1727987034883289400, 
0.13007724285125732, -0.17562556266784668, 0.38591721619421543, 1727987034913722578, 
-0.17417466640472412, -0.04605942964553833, 0.37891709262346046, 1727987034945455173, 
-0.0719599723815918, 0.11435061693191528, 0.4301681516476629, 1727987034982559313, 
0.406210720539093, -0.11881595849990845, 0.4067039960672352, 1727987035012366859, 
0.533923327922821, -0.1779942512512207, 0.4025005995600166, 1727987035042372681, 
-0.2034814953804016, -0.014211714267730713, 0.38282439363451426, 1727987035073685670, 
0.3811655044555664, 0.706437885761261, 0.3951509087533323, 1727987035105038210, 
-0.6009985208511353, -0.0781431794166565, 0.4803818072291099, 1727987035132229338, 
-0.044887006282806396, -0.6378379464149475, 0.42881115988802965, 1727987035162168412, 
0.038742244243621826, 0.113594651222229, 0.4466412891344445, 1727987035192259413, 
-0.2057199478149414, 0.33459043502807617, 0.4148779170247682, 1727987035222205847, 
-0.2698062062263489, 0.5575917959213257, 0.3825313398937099, 1727987035252152368, 
-0.12122100591659546, -0.051987290382385254, 0.36852243564964016, 1727987035282390619, 
0.5905803442001343, -0.2574337124824524, 0.36809212981138534, 1727987035313682755, 
-0.363770067691803, 0.4517951011657715, 0.4243839196663549, 1727987035342102980, 
0.15139317512512207, -0.13405466079711914, 0.38758398248835885, 1727987035370889642, 
0.054473042488098145, -0.2169710397720337, 0.34759867683541074, 1727987035401853165, 
0.5570197105407715, 0.14785230159759521, 0.3847430710522498, 1727987035431850694, 
-0.199995756149292, 0.50011146068573, 0.3590142984981159, 1727987035461789351, 
-0.3018195629119873, 0.19044017791748047, 0.3448912139779371, 1727987035491744629, 
-0.49701446294784546, -0.10493451356887817, 0.3969773362543519, 1727987035521864598, 
-0.1799846887588501, -0.13688087463378906, 0.37991747504957296, 1727987035554418159, 
0.00369417667388916, 0.41346240043640137, 0.4373183805140602, 1727987035581612240, 
-0.5035916566848755, 0.2352830171585083, 0.43521164899001247, 1727987035611538666, 
-0.14282512664794922, -0.1841895580291748, 0.45099684779875754, 1727987035641579365, 
-0.3333127498626709, 0.3244495987892151, 0.4537012876481361, 1727987035671530731, 
0.20987606048583984, 0.06892871856689453, 0.44362155877379184, 1727987035701461331, 
-0.32808202505111694, 0.47403353452682495, 0.42044708863312036, 1727987035731475167, 
0.02585601806640625, 0.29542046785354614, 0.37506969834366805, 1727987035761976387, 
-0.16808968782424927, 0.35658490657806396, 0.3242482161042283, 1727987035793832927, 
0.726351261138916, 0.4341614842414856, 0.4097412858523311, 1727987035821353550, 
0.3832128643989563, 0.11111962795257568, 0.3761859878986724, 1727987035851316046, 
0.1840834617614746, 0.7839034199714661, 0.36442587210620314, 1727987035881156107, 
0.21153128147125244, 0.21423053741455078, 0.4046431450320954, 1727987035911148774, 
0.10856246948242188, -0.27363330125808716, 0.4311039975418993, 1727987035941120174, 
-0.05422896146774292, -0.10271847248077393, 0.39471716918647054, 1727987035971098566, 
0.42138350009918213, 0.35590100288391113, 0.38877804968413104, 1727987036002424943, 
0.11425381898880005, 0.42958366870880127, 0.4016948649899127, 1727987036033765897, 
-0.8436245918273926, -0.038701534271240234, 0.4167458481568665, 1727987036061030737, 
0.2758640646934509, -0.28146010637283325, 0.3793985474248269, 1727987036089905581, 
0.258144736289978, 0.41331321001052856, 0.4080401100735926, 1727987036120862001, 
-0.1916409134864807, 0.5660347938537598, 0.42095792653579334, 1727987036150862198, 
-0.04089367389678955, 0.06915855407714844, 0.3987977800890796, 1727987036180756969, 
0.5803812742233276, -0.5556628704071045, 0.4011175970980181, 1727987036210790008, 
0.35950708389282227, 0.03475469350814819, 0.4156036241096096, 1727987036241782925, 
-0.18611687421798706, 0.20327973365783691, 0.3792543330832754, 1727987036273805766, 
0.026383697986602783, -0.08251118659973145, 0.43443936147893425, 1727987036300710290, 
-0.16330695152282715, 0.11077892780303955, 0.4219971123666035, 1727987036330615993, 
0.09388196468353271, -0.24841654300689697, 0.4194513223294382, 1727987036360567912, 
0.035253942012786865, 0.08718973398208618, 0.394588829275076, 1727987036390513726, 
0.5874479413032532, 0.30055516958236694, 0.4161633069098066, 1727987036420499510, 
-0.11209815740585327, 0.4291955828666687, 0.3911071291440028, 1727987036450928781, 
0.2855370044708252, 0.5472348928451538, 0.36701259230329697, 1727987036481787385, 
-0.6145185828208923, -0.1856897473335266, 0.36289592756900835, 1727987036513960550, 
-0.28773927688598633, -0.3606525659561157, 0.45955552289872587, 1727987036540311620, 
0.10859954357147217, 1.2656424045562744, 0.41936441926109885, 1727987036570246443, 
-0.21293163299560547, 0.33796101808547974, 0.40657649611472674, 1727987036600244286, 
-0.2932931184768677, -0.6400180459022522, 0.39747216943833447, 1727987036630212692, 
-0.35746222734451294, 0.27964186668395996, 0.3983698049613117, 1727987036660115633, 
0.19244122505187988, 0.5542529821395874, 0.386192108081051, 1727987036690139834, 
-0.31783491373062134, 0.4140133261680603, 0.359706197593495, 1727987036721841371, 
0.22545284032821655, 0.36386364698410034, 0.42822021123333825, 1727987036750901009, 
-0.18001413345336914, 0.3467593193054199, 0.42583450207943463, 1727987036779994035, 
0.2364429235458374, 0.6709862947463989, 0.38583946373045563, 1727987036810039551, 
-0.7789422273635864, 0.04512268304824829, 0.377094660454928, 1727987036840036031, 
0.3226184844970703, -0.3260217308998108, 0.3873968606123457, 1727987036869844230, 
-0.39503681659698486, 0.42478954792022705, 0.41426716386195184, 1727987036898883760, 
-0.07604271173477173, 0.6325163245201111, 0.3841054063719922, 1727987036930075712, 
-0.05543076992034912, 0.6639990210533142, 0.3760606420709221, 1727987036962263402, 
0.03180509805679321, 0.042877197265625, 0.4597520241534928, 1727987036989708929, 
0.24581944942474365, -0.2890634536743164, 0.4122441733648923, 1727987037019643327, 
-0.20699673891067505, 0.6899160146713257, 0.40906417147990426, 1727987037049627041, 
0.3539741635322571, 0.046048760414123535, 0.4187516717664599, 1727987037079578549, 
-0.33144450187683105, 0.4711152911186218, 0.40844555561862267, 1727987037109600764, 
0.5265231132507324, 0.03453749418258667, 0.4031134396959027, 1727987037139768859, 
-0.126384437084198, -0.3414081931114197, 0.4193553866432082, 1727987037168909276, 
0.7916396856307983, 0.07788819074630737, 0.34111860569047886, 1727987037202108820, 
0.06982582807540894, 0.3617520332336426, 0.4109261544024581, 1727987037229416617, 
0.3048722743988037, 0.20763635635375977, 0.3985526967884812, 1727987037259304581, 
-0.2040489912033081, -0.1707717776298523, 0.4038414383443389, 1727987037289320622, 
-0.33637601137161255, -0.20837122201919556, 0.41102892395382784, 1727987037319280534, 
0.15731924772262573, 0.19202935695648193, 0.41007864474834305, 1727987037349230439, 
0.015555322170257568, 0.3756464123725891, 0.4191256015177276, 1727987037378158611, 
0.3799383044242859, 0.16967177391052246, 0.362888601129358, 1727987037410323787, 
-1.0223033428192139, -0.4697291851043701, 0.3450382999951149, 1727987037440880784, 
0.35280275344848633, 0.03544539213180542, 0.3766346502592814, 1727987037469095934, 
-0.13798797130584717, 0.2107762098312378, 0.41578600226435064, 1727987037498998687, 
0.28404468297958374, 0.07891964912414551, 0.4158578844025796, 1727987037528967329, 
0.014478862285614014, 0.08034229278564453, 0.42063328520352544, 1727987037558931165, 
0.30946171283721924, 0.15476280450820923, 0.41799084358793004, 1727987037588996545, 
-0.030604183673858643, 0.1516614556312561, 0.417523464033256, 1727987037617889629, 
0.03936302661895752, 0.3160523772239685, 0.3914346826306962, 1727987037649846521, 
0.3518892526626587, 0.415885329246521, 0.40433181050140143, 1727987037682146052, 
-0.2393377423286438, 0.282212495803833, 0.46423473936093074, 1727987037707903943, 
-0.28212249279022217, 0.05311441421508789, 0.354200910811897, 1727987037738737075, 
-0.256572425365448, 0.17152190208435059, 0.3713052711027367, 1727987037768847099, 
0.3781915307044983, 0.7381413578987122, 0.3853920871457718, 1727987037798723574, 
-1.669668436050415, 0.1405797004699707, 0.3266909034433603, 1727987037828812297, 
-0.7981052398681641, 0.035404324531555176, 0.3055337177504793, 1727987037857901424, 
-1.3436040878295898, 0.2075742483139038, 0.2715616543513754, 1727987037890012693, 
-0.10393732786178589, 0.20686691999435425, 0.2333933714529376, 1727987037922106731, 
-1.432022213935852, -0.06983619928359985, 0.27731019533607343, 1727987037948626953, 
-0.5944919586181641, -0.4724809527397156, 0.23135205295938546, 1727987037978596253, 
-0.7164566516876221, -0.11317223310470581, 0.20629187107321453, 1727987038008646806, 
-0.15785259008407593, 0.28573906421661377, 0.19205954250598914, 1727987038038541813, 
-0.11515599489212036, -0.3695515990257263, 0.187253306132209, 1727987038068577704, 
0.5389631986618042, 0.32729190587997437, 0.1653765204481739, 1727987038098546333, 
0.5401735305786133, 0.1143263578414917, 0.1938274226940131, 1727987038130157873, 
1.4636662006378174, 0.3855746388435364, 0.23165003066114687, 1727987038160656064, 
1.639628529548645, 0.4581947922706604, 0.28381239922753265, 1727987038188683291, 
0.6882752180099487, -0.8295758962631226, 0.3135089541359383, 1727987038218574229, 
0.7292069792747498, 0.18445324897766113, 0.32841272672040245, 1727987038248613592, 
0.7273882031440735, 0.621236264705658, 0.3464417176950876, 1727987038278660704, 
1.2429723739624023, 0.3296118974685669, 0.354403658121188, 1727987038308801497, 
0.7272051572799683, -0.2418397068977356, 0.38618940070945446, 1727987038338479460, 
0.8867428302764893, 0.287189781665802, 0.3683816456781358, 1727987038370324553, 
0.036068081855773926, 0.0710793137550354, 0.3690857743238062, 1727987038396890404, 
-0.4153575897216797, -0.06569749116897583, 0.2817510537153039, 1727987038428505304, 
-0.6118050217628479, 0.08316564559936523, 0.34542328542962447, 1727987038457707500, 
0.1519303321838379, -0.21993505954742432, 0.39838510864121984, 1727987038487701701, 
-0.15336698293685913, 0.30887603759765625, 0.3996172942074299, 1727987038517655181, 
0.3483763337135315, -0.04525566101074219, 0.38653998479944657, 1727987038547773536, 
0.005349636077880859, -0.39773887395858765, 0.3977946600095134, 1727987038578383261, 
-0.5376091003417969, -0.1425958275794983, 0.35423380652905334, 1727987038609922269, 
0.09995728731155396, 0.347975492477417, 0.39738331908188707, 1727987038637477218, 
0.06802797317504883, 0.543574333190918, 0.3786395685471122, 1727987038667470355, 
-0.422150194644928, -0.15109020471572876, 0.351956039999966, 1727987038697361637, 
-0.16682380437850952, -0.39257264137268066, 0.36965858922401024, 1727987038727354251, 
0.6043217182159424, 0.2341609001159668, 0.4178264632147708, 1727987038757323722, 
0.2082536220550537, 0.5089894533157349, 0.4266264583892037, 1727987038787310639, 
0.3453139066696167, 0.09064555168151855, 0.3907643739708981, 1727987038818805132, 
-0.05276304483413696, -0.17175573110580444, 0.39857547624565814, 1727987038850160809, 
-0.15733224153518677, 0.17248636484146118, 0.46567751710701055, 1727987038877217126, 
-0.5292661786079407, 0.18482059240341187, 0.4174804890463381, 1727987038907137243, 
-0.1790771484375, 0.5848378539085388, 0.399486815989405, 1727987038937104220, 
0.09536045789718628, 0.41208988428115845, 0.4028509057021891, 1727987038967045703, 
-0.5641738772392273, -0.0535658597946167, 0.3704940832801826, 1727987038996997915, 
0.1892055869102478, 0.22550249099731445, 0.372199880486653, 1727987039027048724, 
-0.20088434219360352, 0.2878609299659729, 0.40543020315931194, 1727987039058029262, 
0.5496793389320374, 0.3610135316848755, 0.38597212025493705, 1727987039089952801, 
-0.0025898218154907227, 0.2870679497718811, 0.4188424649015639, 1727987039116835232, 
0.24707788228988647, -0.4200119376182556, 0.4051633756739166, 1727987039146762538, 
0.017778992652893066, -0.3191646337509155, 0.39437594418945854, 1727987039176736433, 
0.6021459698677063, 0.8050680756568909, 0.3960728269951965, 1727987039206731465, 
-0.029269874095916748, 0.20568495988845825, 0.400233294209837, 1727987039236651672, 
-0.37642407417297363, -0.3207770586013794, 0.4012422507134538, 1727987039266659950, 
0.17240101099014282, 0.10162574052810669, 0.3988255316981724, 1727987039298074296, 
0.03946661949157715, 0.287214994430542, 0.36498958648959423, 1727987039329496475, 
0.3075295090675354, 0.40794360637664795, 0.41188244088635456, 1727987039356642963, 
-0.13468319177627563, -0.03485971689224243, 0.4094443340028616, 1727987039386443844, 
-0.23837006092071533, 0.007868349552154541, 0.40258538339482686, 1727987039416403881, 
-0.34294766187667847, -0.009191632270812988, 0.3893064287072517, 1727987039446384583, 
0.015784084796905518, -0.41080302000045776, 0.38581267849113426, 1727987039476335809, 
0.05798524618148804, 0.4266553521156311, 0.40955185214902706, 1727987039505297718, 
0.06222277879714966, 0.181549072265625, 0.3624384053930957, 1727987039538161827, 
0.06024730205535889, -0.050344765186309814, 0.3989623574892556, 1727987039568748494, 
-0.7720547318458557, -0.1285080909729004, 0.43380536846482437, 1727987039596130956, 
0.6406999826431274, 0.3569694757461548, 0.3949442670931634, 1727987039626100861, 
-0.056671857833862305, 0.0700458288192749, 0.36595949913281706, 1727987039648146515, 
-0.49967604875564575, 0.009768187999725342, 0.43722611455450505, 1727987039676084434, 
0.5844486355781555, 0.874493420124054, 0.41385572442657964, 1727987039706008687, 
-0.3055368661880493, -0.037823617458343506, 0.3668507939407017, 1727987039727948246, 
0.1657642126083374, 0.3340703845024109, 0.40767648569217513, 1727987039766250606, 
-0.22960060834884644, 0.6742979288101196, 0.4228206045063889, 1727987039795956040, 
0.550446093082428, 0.10119855403900146, 0.41135048678882713, 1727987039826152962, 
-0.2654007077217102, -0.015172719955444336, 0.38077288113395935, 1727987039858094536, 
0.23220890760421753, 0.05965703725814819, 0.4224508155055475, 1727987039885808753, 
-0.5305278301239014, 0.3780200481414795, 0.3760340343611708, 1727987039915703186, 
0.7032376527786255, 0.6232651472091675, 0.3553718961523769, 1727987039945723533, 
-0.33311009407043457, -0.2758955955505371, 0.34375697238706493, 1727987039975669689, 
0.2424389123916626, -0.167402446269989, 0.35589794602932673, 1727987040005615308, 
-0.48190099000930786, 0.22883391380310059, 0.40522464532541164, 1727987040035549916, 
0.056671142578125, 0.7351729869842529, 0.38895824616838476, 1727987040066194872, 
0.20493584871292114, 0.14315825700759888, 0.36618625940177973, 1727987040098775045, 
0.12574976682662964, -0.6027190089225769, 0.47613056163284756, 1727987040125526049, 
0.0940253734588623, -0.4726148843765259, 0.39639356939441045, 1727987040155387383, 
-0.1711193323135376, 0.76331627368927, 0.3703717676762478, 1727987040185329931, 
0.7900770902633667, 0.11988168954849243, 0.44579874245745277, 1727987040214330090, 
-0.4192012548446655, -0.252938449382782, 0.43559455635378097, 1727987040245322374, 
0.2026921510696411, -0.14221972227096558, 0.42328495838925256, 1727987040275236484, 
-0.18351078033447266, 0.04798781871795654, 0.38153593012068904, 1727987040306301642, 
0.8118336796760559, 0.29336631298065186, 0.3757459753378134, 1727987040338261515, 
